date	time	group	subject	build	blocknum	trialnum	blockcode	trialcode	pretrialpause	posttrialpause	windowcenter	trialduration	trialtimeout	blocktimeout	response	correct	latency	inwindow	stimulusnumber1	stimulusitem1	stimulusvpos1	stimulushpos1	stimulusonset1	stimulusnumber2	stimulusitem2	stimulusvpos2	stimulushpos2	stimulusonset2
011218	20:36:12	1	1	4.0.10.0	2	1	fenpeiblock1	fangantrial1	500	0	0	0	0	0	Ctrl+'Q'	1	0	0	4	D.bmp	50pct	50pct	0	6	F.bmp	50pct	50pct	83381
011218	20:38:57	1	1	4.0.10.0	2	1	fenpeiblock1	fangantrial1	500	0	0	0	0	0	33	0	594	0	5	E.bmp	50pct	50pct	0	5	E.bmp	50pct	50pct	816
011218	20:38:57	1	1	4.0.10.0	2	2	fenpeiblock1	fangantrial1	500	0	0	0	0	0	36	0	1349	0	3	C.bmp	50pct	50pct	78	2	B.bmp	50pct	50pct	816
011218	20:38:57	1	1	4.0.10.0	2	3	fenpeiblock1	fangantrial1	500	0	0	0	0	0	36	0	1928	0	6	F.bmp	50pct	50pct	62	1	A.bmp	50pct	50pct	816
011218	20:38:57	1	1	4.0.10.0	2	4	fenpeiblock1	fangantrial1	500	0	0	0	0	0	33	0	145	0	4	D.bmp	50pct	50pct	0	3	C.bmp	50pct	50pct	816
011218	20:38:57	1	1	4.0.10.0	2	5	fenpeiblock1	fangantrial1	500	0	0	0	0	0	36	0	420	0	1	A.bmp	50pct	50pct	2	6	F.bmp	50pct	50pct	816
011218	20:38:57	1	1	4.0.10.0	2	6	fenpeiblock1	fangantrial1	500	0	0	0	0	0	33	0	465	0	2	B.bmp	50pct	50pct	0	4	D.bmp	50pct	50pct	816
011218	20:38:57	1	1	4.0.10.0	3	1	fangantrial2	fangantrial2	500	0	0	0	0	0	4	0	2119	0	1	假如你有五个筹码	50pct	50pct	106	0	0	0	0	0
011218	20:38:57	1	1	4.0.10.0	3	2	fangantrial2	fangantrial2	500	0	0	0	0	0	2	0	1343	0	1	假如你有五个筹码	50pct	50pct	41	0	0	0	0	0
011218	20:38:57	1	1	4.0.10.0	3	3	fangantrial2	fangantrial2	500	0	0	0	0	0	3	0	1456	0	1	假如你有五个筹码	50pct	50pct	44	0	0	0	0	0
011218	20:38:57	1	1	4.0.10.0	3	4	fangantrial2	fangantrial2	500	0	0	0	0	0	5	0	6678	0	1	假如你有五个筹码	50pct	50pct	32	0	0	0	0	0
011218	20:38:57	1	1	4.0.10.0	3	5	fangantrial2	fangantrial2	500	0	0	0	0	0	2	0	1229	0	1	假如你有五个筹码	50pct	50pct	31	0	0	0	0	0
011218	20:38:57	1	1	4.0.10.0	3	6	fangantrial2	fangantrial2	500	0	0	0	0	0	3	0	15049	0	1	假如你有五个筹码	50pct	50pct	43	0	0	0	0	0
011218	20:40:32	1	1	4.0.10.0	2	1	fenpeiblock1	fangantrial1	500	0	0	0	0	0	33	0	5160	0	6	F.bmp	50pct	50pct	0	3	C.bmp	50pct	50pct	816
011218	20:40:32	1	1	4.0.10.0	2	2	fenpeiblock1	fangantrial1	500	0	0	0	0	0	33	0	3162	0	2	B.bmp	50pct	50pct	63	2	B.bmp	50pct	50pct	816
011218	20:40:32	1	1	4.0.10.0	2	3	fenpeiblock1	fangantrial1	500	0	0	0	0	0	33	0	122	0	5	E.bmp	50pct	50pct	0	6	F.bmp	50pct	50pct	816
011218	20:40:32	1	1	4.0.10.0	2	4	fenpeiblock1	fangantrial1	500	0	0	0	0	0	33	0	3693	0	1	A.bmp	50pct	50pct	56	1	A.bmp	50pct	50pct	816
011218	20:40:32	1	1	4.0.10.0	2	5	fenpeiblock1	fangantrial1	500	0	0	0	0	0	36	0	1238	0	3	C.bmp	50pct	50pct	67	5	E.bmp	50pct	50pct	821
011218	20:40:32	1	1	4.0.10.0	2	6	fenpeiblock1	fangantrial1	500	0	0	0	0	0	36	0	1576	0	4	D.bmp	50pct	50pct	53	4	D.bmp	50pct	50pct	816
011218	20:40:32	1	1	4.0.10.0	3	1	fangantrial2	fangantrial2	500	0	0	0	0	0	2	0	7322	0	1	A.bmp	50pct	50pct	188	1	假如你有五个筹码	50pct	50pct	8316
011218	20:40:32	1	1	4.0.10.0	3	2	fangantrial2	fangantrial2	500	0	0	0	0	0	4	0	4420	0	5	E.bmp	50pct	50pct	0	1	假如你有五个筹码	50pct	50pct	8319
011218	20:40:32	1	1	4.0.10.0	3	3	fangantrial2	fangantrial2	500	0	0	0	0	0	2	0	4183	0	6	F.bmp	50pct	50pct	0	1	假如你有五个筹码	50pct	50pct	8316
011218	20:40:32	1	1	4.0.10.0	3	4	fangantrial2	fangantrial2	500	0	0	0	0	0	4	0	8053	0	3	C.bmp	50pct	50pct	0	1	假如你有五个筹码	50pct	50pct	8316
011218	20:40:32	1	1	4.0.10.0	3	5	fangantrial2	fangantrial2	500	0	0	0	0	0	Ctrl+'Q'	1	0	0	2	B.bmp	50pct	50pct	0	1	假如你有五个筹码	50pct	50pct	8322
011218	20:44:52	1	1	4.0.10.0	2	1	fenpeiblock1	fangantrial1	500	0	0	0	0	0	33	0	608	0	5	E.bmp	50pct	50pct	0	1	A.bmp	50pct	50pct	816
011218	20:44:52	1	1	4.0.10.0	2	2	fenpeiblock1	fangantrial1	500	0	0	0	0	0	36	0	1565	0	2	B.bmp	50pct	50pct	0	6	F.bmp	50pct	50pct	816
011218	20:44:52	1	1	4.0.10.0	2	3	fenpeiblock1	fangantrial1	500	0	0	0	0	0	33	0	1447	0	1	A.bmp	50pct	50pct	11	4	D.bmp	50pct	50pct	816
011218	20:44:52	1	1	4.0.10.0	2	4	fenpeiblock1	fangantrial1	500	0	0	0	0	0	Ctrl+'Q'	1	16687	0	3	C.bmp	50pct	50pct	54	5	E.bmp	50pct	50pct	816
011218	20:45:36	1	1	4.0.10.0	2	1	fenpeiblock1	fangantrial1	500	0	0	0	0	0	33	0	1162	0	4	D.bmp	50pct	50pct	0	0	0	0	0	0
011218	20:45:36	1	1	4.0.10.0	2	2	fenpeiblock1	fangantrial1	500	0	0	0	0	0	36	0	3493	0	3	C.bmp	50pct	50pct	0	0	0	0	0	0
011218	20:45:36	1	1	4.0.10.0	2	3	fenpeiblock1	fangantrial1	500	0	0	0	0	0	33	0	2062	0	5	E.bmp	50pct	50pct	0	0	0	0	0	0
011218	20:45:36	1	1	4.0.10.0	2	4	fenpeiblock1	fangantrial1	500	0	0	0	0	0	36	0	2431	0	6	F.bmp	50pct	50pct	0	0	0	0	0	0
011218	20:45:36	1	1	4.0.10.0	2	5	fenpeiblock1	fangantrial1	500	0	0	0	0	0	33	0	1553	0	2	B.bmp	50pct	50pct	0	0	0	0	0	0
011218	20:45:36	1	1	4.0.10.0	2	6	fenpeiblock1	fangantrial1	500	0	0	0	0	0	36	0	575	0	1	A.bmp	50pct	50pct	0	0	0	0	0	0
011218	20:45:36	1	1	4.0.10.0	3	1	fangantrial2	fangantrial2	500	0	0	0	0	0	Ctrl+'Q'	1	20618	0	5	E.bmp	50pct	50pct	0	1	假如你有五个筹码	50pct	50pct	1649
011218	20:47:24	1	1	4.0.10.0	2	1	fenpeiblock1	fangantrial1	500	0	0	0	0	0	33	0	578	0	1	A.bmp	50pct	50pct	0	0	0	0	0	0
011218	20:47:24	1	1	4.0.10.0	2	2	fenpeiblock1	fangantrial1	500	0	0	0	0	0	36	0	340	0	6	F.bmp	50pct	50pct	0	0	0	0	0	0
011218	20:47:24	1	1	4.0.10.0	2	3	fenpeiblock1	fangantrial1	500	0	0	0	0	0	33	0	364	0	5	E.bmp	50pct	50pct	0	0	0	0	0	0
011218	20:47:24	1	1	4.0.10.0	2	4	fenpeiblock1	fangantrial1	500	0	0	0	0	0	36	0	466	0	4	D.bmp	50pct	50pct	0	0	0	0	0	0
011218	20:47:24	1	1	4.0.10.0	2	5	fenpeiblock1	fangantrial1	500	0	0	0	0	0	33	0	372	0	2	B.bmp	50pct	50pct	0	0	0	0	0	0
011218	20:47:24	1	1	4.0.10.0	2	6	fenpeiblock1	fangantrial1	500	0	0	0	0	0	36	0	296	0	3	C.bmp	50pct	50pct	0	0	0	0	0	0
011218	20:47:24	1	1	4.0.10.0	3	1	fangantrial2	fangantrial2	500	0	0	0	0	0	4	0	5057	0	3	C.bmp	50pct	50pct	4	1	假如你有五个筹码	70	50	1649
011218	20:47:24	1	1	4.0.10.0	3	2	fangantrial2	fangantrial2	500	0	0	0	0	0	3	0	2163	0	5	E.bmp	50pct	50pct	0	1	假如你有五个筹码	70	50	1649
011218	20:47:24	1	1	4.0.10.0	3	3	fangantrial2	fangantrial2	500	0	0	0	0	0	2	0	3657	0	2	B.bmp	50pct	50pct	0	1	假如你有五个筹码	70	50	1649
011218	20:47:24	1	1	4.0.10.0	3	4	fangantrial2	fangantrial2	500	0	0	0	0	0	4	0	2557	0	6	F.bmp	50pct	50pct	0	1	假如你有五个筹码	70	50	1649
011218	20:47:24	1	1	4.0.10.0	3	5	fangantrial2	fangantrial2	500	0	0	0	0	0	5	0	4021	0	4	D.bmp	50pct	50pct	0	1	假如你有五个筹码	70	50	1649
011218	20:47:24	1	1	4.0.10.0	3	6	fangantrial2	fangantrial2	500	0	0	0	0	0	5	0	4091	0	1	A.bmp	50pct	50pct	0	1	假如你有五个筹码	70	50	1649
011218	20:48:46	1	1	4.0.10.0	2	1	fenpeiblock1	fangantrial1	500	0	0	0	0	0	Ctrl+'Q'	1	3455	0	4	D.bmp	50pct	50pct	0	0	0	0	0	0
011218	20:49:16	1	1	4.0.10.0	2	1	fenpeiblock1	fangantrial1	500	0	0	0	0	0	33	0	1749	0	6	F.bmp	50pct	50pct	0	0	0	0	0	0
011218	20:49:16	1	1	4.0.10.0	2	2	fenpeiblock1	fangantrial1	500	0	0	0	0	0	36	0	1460	0	1	A.bmp	50pct	50pct	0	0	0	0	0	0
011218	20:49:16	1	1	4.0.10.0	2	3	fenpeiblock1	fangantrial1	500	0	0	0	0	0	33	0	797	0	5	E.bmp	50pct	50pct	0	0	0	0	0	0
011218	20:49:16	1	1	4.0.10.0	2	4	fenpeiblock1	fangantrial1	500	0	0	0	0	0	36	0	1485	0	4	D.bmp	50pct	50pct	0	0	0	0	0	0
011218	20:49:16	1	1	4.0.10.0	2	5	fenpeiblock1	fangantrial1	500	0	0	0	0	0	33	0	1015	0	3	C.bmp	50pct	50pct	1	0	0	0	0	0
011218	20:49:16	1	1	4.0.10.0	2	6	fenpeiblock1	fangantrial1	500	0	0	0	0	0	36	0	417	0	2	B.bmp	50pct	50pct	0	0	0	0	0	0
011218	20:49:16	1	1	4.0.10.0	3	1	fangantrial2	fangantrial2	500	0	0	0	0	0	4	0	5123	0	6	F.bmp	50pct	50pct	0	1	假如你有五个筹码	70	50	1650
011218	20:49:16	1	1	4.0.10.0	3	2	fangantrial2	fangantrial2	500	0	0	0	0	0	3	0	4835	0	3	C.bmp	50pct	50pct	0	1	假如你有五个筹码	70	50	1649
011218	20:49:16	1	1	4.0.10.0	3	3	fangantrial2	fangantrial2	500	0	0	0	0	0	2	0	942	0	4	D.bmp	50pct	50pct	163	1	假如你有五个筹码	70	50	1649
011218	20:49:16	1	1	4.0.10.0	3	4	fangantrial2	fangantrial2	500	0	0	0	0	0	4	0	1308	0	5	E.bmp	50pct	50pct	0	1	假如你有五个筹码	70	50	1651
011218	20:49:16	1	1	4.0.10.0	3	5	fangantrial2	fangantrial2	500	0	0	0	0	0	3	0	1082	0	2	B.bmp	50pct	50pct	127	1	假如你有五个筹码	70	50	1718
011218	20:49:16	1	1	4.0.10.0	3	6	fangantrial2	fangantrial2	500	0	0	0	0	0	5	0	1368	0	1	A.bmp	50pct	50pct	129	1	假如你有五个筹码	70	50	1649
011218	20:51:40	1	1	4.0.10.0	2	1	fenpeiblock1	fangantrial1	500	0	0	0	0	0	33	0	4482	0	2	B.bmp	50pct	50pct	0	0	0	0	0	0	0	0	0	0	0
011218	20:51:40	1	1	4.0.10.0	2	2	fenpeiblock1	fangantrial1	500	0	0	0	0	0	33	0	1587	0	4	D.bmp	50pct	50pct	0	0	0	0	0	0	0	0	0	0	0
011218	20:51:40	1	1	4.0.10.0	2	3	fenpeiblock1	fangantrial1	500	0	0	0	0	0	Ctrl+'Q'	1	5876	0	1	A.bmp	50pct	50pct	0	0	0	0	0	0	0	0	0	0	0
011218	20:52:38	1	1	4.0.10.0	2	1	fenpeiblock1	fangantrial1	500	0	0	0	0	0	Ctrl+'Q'	1	7061	0	6	F.bmp	50pct	50pct	0	3	C.bmp	50pct	50pct	1649
011218	20:53:29	1	1	4.0.10.0	2	1	fenpeiblock1	fangantrial1	500	0	0	0	0	0	33	0	1527	0	1	xuanze1.bmp	50pct	50pct	0	4	D.bmp	50pct	50pct	1649
011218	20:53:29	1	1	4.0.10.0	2	2	fenpeiblock1	fangantrial1	500	0	0	0	0	0	36	0	957	0	1	xuanze1.bmp	50pct	50pct	0	3	C.bmp	50pct	50pct	1651
011218	20:53:29	1	1	4.0.10.0	2	3	fenpeiblock1	fangantrial1	500	0	0	0	0	0	33	0	467	0	1	xuanze1.bmp	50pct	50pct	0	6	F.bmp	50pct	50pct	1649
011218	20:53:29	1	1	4.0.10.0	2	4	fenpeiblock1	fangantrial1	500	0	0	0	0	0	36	0	475	0	1	xuanze1.bmp	50pct	50pct	0	5	E.bmp	50pct	50pct	1649
011218	20:53:29	1	1	4.0.10.0	2	5	fenpeiblock1	fangantrial1	500	0	0	0	0	0	33	0	375	0	1	xuanze1.bmp	50pct	50pct	0	1	A.bmp	50pct	50pct	1649
011218	20:53:29	1	1	4.0.10.0	2	6	fenpeiblock1	fangantrial1	500	0	0	0	0	0	36	0	1494	0	1	xuanze1.bmp	50pct	50pct	0	2	B.bmp	50pct	50pct	1649
011218	20:53:29	1	1	4.0.10.0	3	1	fangantrial2	fangantrial2	500	0	0	0	0	0	5	0	3950	0	3	C.bmp	50pct	50pct	0	1	假如你有五个筹码	70	50	3316
011218	20:53:29	1	1	4.0.10.0	3	2	fangantrial2	fangantrial2	500	0	0	0	0	0	Ctrl+'Q'	1	2	0	5	E.bmp	50pct	50pct	126	1	假如你有五个筹码	70	50	3316
011218	20:55:06	1	1	4.0.10.0	2	1	fenpeiblock1	fangantrial1	500	0	0	0	0	0	33	0	817	0	1	xuanze1.bmp	50pct	50pct	0	1	A.bmp	50pct	50pct	1649
011218	20:55:06	1	1	4.0.10.0	2	2	fenpeiblock1	fangantrial1	500	0	0	0	0	0	36	0	411	0	1	xuanze1.bmp	50pct	50pct	9	5	E.bmp	50pct	50pct	1649
011218	20:55:06	1	1	4.0.10.0	2	3	fenpeiblock1	fangantrial1	500	0	0	0	0	0	33	0	351	0	1	xuanze1.bmp	50pct	50pct	0	6	F.bmp	50pct	50pct	1650
011218	20:55:06	1	1	4.0.10.0	2	4	fenpeiblock1	fangantrial1	500	0	0	0	0	0	36	0	258	0	1	xuanze1.bmp	50pct	50pct	0	3	C.bmp	50pct	50pct	1649
011218	20:55:06	1	1	4.0.10.0	2	5	fenpeiblock1	fangantrial1	500	0	0	0	0	0	33	0	409	0	1	xuanze1.bmp	50pct	50pct	0	2	B.bmp	50pct	50pct	1649
011218	20:55:06	1	1	4.0.10.0	2	6	fenpeiblock1	fangantrial1	500	0	0	0	0	0	36	0	356	0	1	xuanze1.bmp	50pct	50pct	0	4	D.bmp	50pct	50pct	1649
011218	20:55:06	1	1	4.0.10.0	3	1	fangantrial2	fangantrial2	500	0	0	0	0	0	5	0	17291	0	2	B.bmp	50pct	50pct	0	1	假如你有五个筹码，每个价值￥20，请你选择将多少筹码投入方案A，其余筹码将投入方案B	70	50	3316
011218	20:55:06	1	1	4.0.10.0	3	2	fangantrial2	fangantrial2	500	0	0	0	0	0	Ctrl+'Q'	1	1395	0	6	F.bmp	50pct	50pct	0	1	假如你有五个筹码，每个价值￥20，请你选择将多少筹码投入方案A，其余筹码将投入方案B	70	50	3316
011218	20:56:44	1	1	4.0.10.0	2	1	fenpeiblock1	fangantrial1	500	0	0	0	0	0	36	0	1366	0	1	xuanze1.bmp	50pct	50pct	131	2	B.bmp	50pct	50pct	1649
011218	20:56:44	1	1	4.0.10.0	2	2	fenpeiblock1	fangantrial1	500	0	0	0	0	0	33	0	267	0	1	xuanze1.bmp	50pct	50pct	0	5	E.bmp	50pct	50pct	1649
011218	20:56:44	1	1	4.0.10.0	2	3	fenpeiblock1	fangantrial1	500	0	0	0	0	0	33	0	654	0	1	xuanze1.bmp	50pct	50pct	0	3	C.bmp	50pct	50pct	1649
011218	20:56:44	1	1	4.0.10.0	2	4	fenpeiblock1	fangantrial1	500	0	0	0	0	0	36	0	807	0	1	xuanze1.bmp	50pct	50pct	1	4	D.bmp	50pct	50pct	1649
011218	20:56:44	1	1	4.0.10.0	2	5	fenpeiblock1	fangantrial1	500	0	0	0	0	0	33	0	550	0	1	xuanze1.bmp	50pct	50pct	0	1	A.bmp	50pct	50pct	1649
011218	20:56:44	1	1	4.0.10.0	2	6	fenpeiblock1	fangantrial1	500	0	0	0	0	0	33	0	1280	0	1	xuanze1.bmp	50pct	50pct	0	6	F.bmp	50pct	50pct	1652
011218	20:56:44	1	1	4.0.10.0	3	1	fangantrial2	fangantrial2	500	0	0	0	0	0	Ctrl+'Q'	1	18237	0	5	E.bmp	50pct	50pct	0	1	假如你有五个筹码，每个价值￥20，请你选择将多少筹码投入方案A，其余筹码将投入方案B	70	50	3316
011218	20:58:23	1	1	4.0.10.0	2	1	fenpeiblock1	fangantrial1	500	0	0	0	0	0	36	0	1755	0	1	xuanze1.bmp	50pct	50pct	0	2	B.bmp	50pct	50pct	1650
011218	20:58:23	1	1	4.0.10.0	2	2	fenpeiblock1	fangantrial1	500	0	0	0	0	0	33	0	600	0	1	xuanze1.bmp	50pct	50pct	0	3	C.bmp	50pct	50pct	1649
011218	20:58:23	1	1	4.0.10.0	2	3	fenpeiblock1	fangantrial1	500	0	0	0	0	0	36	0	2026	0	1	xuanze1.bmp	50pct	50pct	0	4	D.bmp	50pct	50pct	1649
011218	20:58:23	1	1	4.0.10.0	2	4	fenpeiblock1	fangantrial1	500	0	0	0	0	0	33	0	1012	0	1	xuanze1.bmp	50pct	50pct	0	1	A.bmp	50pct	50pct	1649
011218	20:58:23	1	1	4.0.10.0	2	5	fenpeiblock1	fangantrial1	500	0	0	0	0	0	36	0	661	0	1	xuanze1.bmp	50pct	50pct	0	6	F.bmp	50pct	50pct	1649
011218	20:58:23	1	1	4.0.10.0	2	6	fenpeiblock1	fangantrial1	500	0	0	0	0	0	33	0	768	0	1	xuanze1.bmp	50pct	50pct	1	5	E.bmp	50pct	50pct	1649
011218	20:58:23	1	1	4.0.10.0	3	1	fangantrial2	fangantrial2	500	0	0	0	0	0	3	0	5423	0	1	A.bmp	50pct	50pct	0	1	假如你有五个筹码，每个价值￥20，请你选择将多少筹码投入方案A，其余筹码将投入方案B	70	50	1649
011218	20:58:23	1	1	4.0.10.0	3	2	fangantrial2	fangantrial2	500	0	0	0	0	0	4	0	2475	0	3	C.bmp	50pct	50pct	141	1	假如你有五个筹码，每个价值￥20，请你选择将多少筹码投入方案A，其余筹码将投入方案B	70	50	1649
011218	20:58:23	1	1	4.0.10.0	3	3	fangantrial2	fangantrial2	500	0	0	0	0	0	2	0	2533	0	6	F.bmp	50pct	50pct	0	1	假如你有五个筹码，每个价值￥20，请你选择将多少筹码投入方案A，其余筹码将投入方案B	70	50	1713
011218	20:58:23	1	1	4.0.10.0	3	4	fangantrial2	fangantrial2	500	0	0	0	0	0	6	0	3970	0	4	D.bmp	50pct	50pct	154	1	假如你有五个筹码，每个价值￥20，请你选择将多少筹码投入方案A，其余筹码将投入方案B	70	50	1649
011218	20:58:23	1	1	4.0.10.0	3	5	fangantrial2	fangantrial2	500	0	0	0	0	0	Ctrl+'Q'	1	23886	0	2	B.bmp	50pct	50pct	0	1	假如你有五个筹码，每个价值￥20，请你选择将多少筹码投入方案A，其余筹码将投入方案B	70	50	1698
011218	21:01:33	1	1	4.0.10.0	2	1	fenpeiblock1	fangantrial1	500	0	0	0	0	0	36	0	957	0	1	xuanze1.bmp	50pct	50pct	0	2	B.bmp	50pct	50pct	1649
011218	21:01:33	1	1	4.0.10.0	2	2	fenpeiblock1	fangantrial1	500	0	0	0	0	0	36	0	695	0	1	xuanze1.bmp	50pct	50pct	0	4	D.bmp	50pct	50pct	1649
011218	21:01:33	1	1	4.0.10.0	2	3	fenpeiblock1	fangantrial1	500	0	0	0	0	0	33	0	466	0	1	xuanze1.bmp	50pct	50pct	0	3	C.bmp	50pct	50pct	1651
011218	21:01:33	1	1	4.0.10.0	2	4	fenpeiblock1	fangantrial1	500	0	0	0	0	0	33	0	532	0	1	xuanze1.bmp	50pct	50pct	2	5	E.bmp	50pct	50pct	1649
011218	21:01:33	1	1	4.0.10.0	2	5	fenpeiblock1	fangantrial1	500	0	0	0	0	0	33	0	595	0	1	xuanze1.bmp	50pct	50pct	0	1	A.bmp	50pct	50pct	1649
011218	21:01:33	1	1	4.0.10.0	2	6	fenpeiblock1	fangantrial1	500	0	0	0	0	0	33	0	844	0	1	xuanze1.bmp	50pct	50pct	0	6	F.bmp	50pct	50pct	1649
011218	21:01:33	1	1	4.0.10.0	3	1	fangantrial2	fangantrial2	500	0	0	0	0	0	3	0	7854	0	3	C.bmp	50pct	50pct	0	1	假如你有五个筹码，每个价值￥20，请你选择将多少筹码投入方案A，其余筹码将投入方案B	70	50	1649
011218	21:01:33	1	1	4.0.10.0	3	2	fangantrial2	fangantrial2	500	0	0	0	0	0	3	0	764	0	5	E.bmp	50pct	50pct	175	1	假如你有五个筹码，每个价值￥20，请你选择将多少筹码投入方案A，其余筹码将投入方案B	70	50	1649
011218	21:01:33	1	1	4.0.10.0	3	3	fangantrial2	fangantrial2	500	0	0	0	0	0	3	0	685	0	4	D.bmp	50pct	50pct	0	1	假如你有五个筹码，每个价值￥20，请你选择将多少筹码投入方案A，其余筹码将投入方案B	70	50	1649
011218	21:01:33	1	1	4.0.10.0	3	4	fangantrial2	fangantrial2	500	0	0	0	0	0	3	0	701	0	1	A.bmp	50pct	50pct	0	1	假如你有五个筹码，每个价值￥20，请你选择将多少筹码投入方案A，其余筹码将投入方案B	70	50	1649
011218	21:01:33	1	1	4.0.10.0	3	5	fangantrial2	fangantrial2	500	0	0	0	0	0	3	0	605	0	6	F.bmp	50pct	50pct	1	1	假如你有五个筹码，每个价值￥20，请你选择将多少筹码投入方案A，其余筹码将投入方案B	70	50	1649
011218	21:01:33	1	1	4.0.10.0	3	6	fangantrial2	fangantrial2	500	0	0	0	0	0	3	0	894	0	2	B.bmp	50pct	50pct	3	1	假如你有五个筹码，每个价值￥20，请你选择将多少筹码投入方案A，其余筹码将投入方案B	70	50	1649
011218	21:03:41	1	1	4.0.10.0	2	1	fenpeiblock1	fangantrial1	500	0	0	0	0	0	33	0	723	0	1	xuanze1.bmp	50pct	50pct	0	5	E.bmp	50pct	50pct	1649
011218	21:03:41	1	1	4.0.10.0	2	2	fenpeiblock1	fangantrial1	500	0	0	0	0	0	36	0	433	0	1	xuanze1.bmp	50pct	50pct	0	4	D.bmp	50pct	50pct	1649
011218	21:03:41	1	1	4.0.10.0	2	3	fenpeiblock1	fangantrial1	500	0	0	0	0	0	33	0	490	0	1	xuanze1.bmp	50pct	50pct	0	2	B.bmp	50pct	50pct	1649
011218	21:03:41	1	1	4.0.10.0	2	4	fenpeiblock1	fangantrial1	500	0	0	0	0	0	33	0	496	0	1	xuanze1.bmp	50pct	50pct	0	1	A.bmp	50pct	50pct	1649
011218	21:03:41	1	1	4.0.10.0	2	5	fenpeiblock1	fangantrial1	500	0	0	0	0	0	33	0	405	0	1	xuanze1.bmp	50pct	50pct	0	3	C.bmp	50pct	50pct	1649
011218	21:03:41	1	1	4.0.10.0	2	6	fenpeiblock1	fangantrial1	500	0	0	0	0	0	36	0	302	0	1	xuanze1.bmp	50pct	50pct	0	6	F.bmp	50pct	50pct	1649
011218	21:03:41	1	1	4.0.10.0	3	1	fangantrial2	fangantrial2	500	0	0	0	0	0	4	0	16785	0	1	A.bmp	50pct	50pct	0	1	假如你有五个筹码，每个价值￥20，请你选择将多少筹码投入方案A，其余筹码将投入方案B	70	50	1649
011218	21:03:41	1	1	4.0.10.0	3	2	fangantrial2	fangantrial2	500	0	0	0	0	0	4	0	1780	0	3	C.bmp	50pct	50pct	0	1	假如你有五个筹码，每个价值￥20，请你选择将多少筹码投入方案A，其余筹码将投入方案B	70	50	1649
011218	21:03:41	1	1	4.0.10.0	3	3	fangantrial2	fangantrial2	500	0	0	0	0	0	Ctrl+'Q'	1	1	0	2	B.bmp	50pct	50pct	0	1	假如你有五个筹码，每个价值￥20，请你选择将多少筹码投入方案A，其余筹码将投入方案B	70	50	1649
