date	time	group	subject	build	blocknum	trialnum	blockcode	trialcode	pretrialpause	posttrialpause	windowcenter	trialduration	trialtimeout	blocktimeout	response	correct	latency	inwindow	stimulusnumber1	stimulusitem1	stimulusvpos1	stimulushpos1	stimulusonset1	stimulusnumber2	stimulusitem2	stimulusvpos2	stimulushpos2	stimulusonset2
011218	21:37:39	1	1	4.0.10.0	2	1	fenpeiblock1	fangantrial1	500	0	0	0	0	0	33	0	659	0	1	xuanze1.bmp	50pct	50pct	12	3	C.bmp	50pct	50pct	1649
011218	21:37:39	1	1	4.0.10.0	2	2	fenpeiblock1	fangantrial1	500	0	0	0	0	0	Ctrl+'Q'	1	2142	0	1	xuanze1.bmp	50pct	50pct	9	2	B.bmp	50pct	50pct	1649
011318	19:12:30	1	1	4.0.10.0	2	1	fenpeiblock1	fangantrial1	500	0	0	0	0	0	Ctrl+'Q'	1	2844	0	1	xuanze1.bmp	50pct	50pct	0	4	D.bmp	50pct	50pct	1649
011318	19:14:31	1	1	4.0.10.0	2	1	fenpeiblock1	fangantrial1	500	0	0	0	0	0	33	0	1267	0	1	xuanze1.bmp	50pct	50pct	0	6	F.bmp	50pct	50pct	1649
011318	19:14:31	1	1	4.0.10.0	2	2	fenpeiblock1	fangantrial1	500	0	0	0	0	0	33	0	461	0	1	xuanze1.bmp	50pct	50pct	76	5	E.bmp	50pct	50pct	1649
011318	19:14:31	1	1	4.0.10.0	2	3	fenpeiblock1	fangantrial1	500	0	0	0	0	0	36	0	375	0	1	xuanze1.bmp	50pct	50pct	0	3	C.bmp	50pct	50pct	1649
011318	19:14:31	1	1	4.0.10.0	2	4	fenpeiblock1	fangantrial1	500	0	0	0	0	0	33	0	2895	0	1	xuanze1.bmp	50pct	50pct	0	2	B.bmp	50pct	50pct	1649
011318	19:14:31	1	1	4.0.10.0	2	5	fenpeiblock1	fangantrial1	500	0	0	0	0	0	36	0	251	0	1	xuanze1.bmp	50pct	50pct	0	4	D.bmp	50pct	50pct	1649
011318	19:14:31	1	1	4.0.10.0	2	6	fenpeiblock1	fangantrial1	500	0	0	0	0	0	33	0	323	0	1	xuanze1.bmp	50pct	50pct	0	1	A.bmp	50pct	50pct	1649
011318	19:14:31	1	1	4.0.10.0	3	1	fangantrial2	fangantrial2	500	0	0	0	0	0	Ctrl+'Q'	1	6810	0	6	F.bmp	50pct	50pct	0	1	假如你有五个筹码，每个价值￥20，请你选择将多少筹码投入方案A，其余筹码将投入方案B	70	50	1649
011318	19:15:28	1	1	4.0.10.0	2	1	fenpeiblock1	fangantrial1	500	0	0	0	0	0	Ctrl+'Q'	1	0	0	1	xuanze1.bmp	50pct	50pct	0	4	D.bmp	50pct	50pct	1649
011318	19:15:34	1	1	4.0.10.0	2	1	fenpeiblock1	fangantrial1	500	0	0	0	0	0	36	0	42	0	1	xuanze1.bmp	50pct	50pct	0	6	F.bmp	50pct	50pct	1649
011318	19:15:34	1	1	4.0.10.0	2	2	fenpeiblock1	fangantrial1	500	0	0	0	0	0	33	0	49	0	1	xuanze1.bmp	50pct	50pct	0	1	A.bmp	50pct	50pct	1649
011318	19:15:34	1	1	4.0.10.0	2	3	fenpeiblock1	fangantrial1	500	0	0	0	0	0	33	0	52	0	1	xuanze1.bmp	50pct	50pct	0	3	C.bmp	50pct	50pct	1649
011318	19:15:34	1	1	4.0.10.0	2	4	fenpeiblock1	fangantrial1	500	0	0	0	0	0	36	0	39	0	1	xuanze1.bmp	50pct	50pct	0	4	D.bmp	50pct	50pct	1649
011318	19:15:34	1	1	4.0.10.0	2	5	fenpeiblock1	fangantrial1	500	0	0	0	0	0	36	0	43	0	1	xuanze1.bmp	50pct	50pct	0	2	B.bmp	50pct	50pct	1649
011318	19:15:34	1	1	4.0.10.0	2	6	fenpeiblock1	fangantrial1	500	0	0	0	0	0	36	0	48	0	1	xuanze1.bmp	50pct	50pct	0	5	E.bmp	50pct	50pct	1649
011318	19:15:34	1	1	4.0.10.0	3	1	fangantrial2	fangantrial2	500	0	0	0	0	0	1	0	51	0	2	B.bmp	50pct	50pct	0	1	假如你有五个筹码，每个价值￥20，请你选择将多少筹码投入方案A，其余筹码将投入方案B	75	50	1649
011318	19:15:34	1	1	4.0.10.0	3	2	fangantrial2	fangantrial2	500	0	0	0	0	0	1	0	20	0	3	C.bmp	50pct	50pct	0	1	假如你有五个筹码，每个价值￥20，请你选择将多少筹码投入方案A，其余筹码将投入方案B	75	50	1649
011318	19:15:34	1	1	4.0.10.0	3	3	fangantrial2	fangantrial2	500	0	0	0	0	0	4	0	56	0	5	E.bmp	50pct	50pct	0	1	假如你有五个筹码，每个价值￥20，请你选择将多少筹码投入方案A，其余筹码将投入方案B	75	50	1649
011318	19:15:34	1	1	4.0.10.0	3	4	fangantrial2	fangantrial2	500	0	0	0	0	0	3	0	25	0	1	A.bmp	50pct	50pct	0	1	假如你有五个筹码，每个价值￥20，请你选择将多少筹码投入方案A，其余筹码将投入方案B	75	50	1649
011318	19:15:34	1	1	4.0.10.0	3	5	fangantrial2	fangantrial2	500	0	0	0	0	0	0	0	45	0	6	F.bmp	50pct	50pct	0	1	假如你有五个筹码，每个价值￥20，请你选择将多少筹码投入方案A，其余筹码将投入方案B	75	50	1649
011318	19:15:34	1	1	4.0.10.0	3	6	fangantrial2	fangantrial2	500	0	0	0	0	0	Ctrl+'Q'	1	0	0	4	D.bmp	50pct	50pct	0	1	假如你有五个筹码，每个价值￥20，请你选择将多少筹码投入方案A，其余筹码将投入方案B	75	50	1649
011318	19:31:00	1	1	4.0.10.0	2	1	fenpeiblock1	fangantrial1	500	0	0	0	0	0	33	0	823	0	1	xuanze1.bmp	50pct	50pct	0	6	F.bmp	50pct	50pct	1649
011318	19:31:00	1	1	4.0.10.0	2	2	fenpeiblock1	fangantrial1	500	0	0	0	0	0	33	0	440	0	1	xuanze1.bmp	50pct	50pct	0	3	C.bmp	50pct	50pct	1649
011318	19:31:00	1	1	4.0.10.0	2	3	fenpeiblock1	fangantrial1	500	0	0	0	0	0	33	0	21	0	1	xuanze1.bmp	50pct	50pct	2	2	B.bmp	50pct	50pct	1649
011318	19:31:00	1	1	4.0.10.0	2	4	fenpeiblock1	fangantrial1	500	0	0	0	0	0	33	0	218	0	1	xuanze1.bmp	50pct	50pct	0	5	E.bmp	50pct	50pct	1649
011318	19:31:00	1	1	4.0.10.0	2	5	fenpeiblock1	fangantrial1	500	0	0	0	0	0	33	0	450	0	1	xuanze1.bmp	50pct	50pct	0	1	A.bmp	50pct	50pct	1649
011318	19:31:00	1	1	4.0.10.0	2	6	fenpeiblock1	fangantrial1	500	0	0	0	0	0	36	0	1139	0	1	xuanze1.bmp	50pct	50pct	0	4	D.bmp	50pct	50pct	1649
011318	19:31:00	1	1	4.0.10.0	3	1	fangantrial2	fangantrial2	500	0	0	0	0	0	4	0	7672	0	2	B.bmp	50pct	50pct	0	1	假如你有五个筹码，每个价值￥20，请你选择将多少筹码投入方案A，其余筹码将投入方案B	75	50	1649
011318	19:31:00	1	1	4.0.10.0	3	2	fangantrial2	fangantrial2	500	0	0	0	0	0	Ctrl+'Q'	1	3705	0	3	C.bmp	50pct	50pct	0	1	假如你有五个筹码，每个价值￥20，请你选择将多少筹码投入方案A，其余筹码将投入方案B	75	50	1650
011318	19:31:58	1	1	4.0.10.0	2	1	fenpeiblock1	fangantrial1	500	0	0	0	0	0	Ctrl+'Q'	1	5171	0	1	xuanze1.bmp	50pct	50pct	0	4	D.bmp	50pct	50pct	1649
011318	19:40:52	1	1	4.0.10.0	2	1	fenpeiblock1	fangantrial1	500	0	0	0	0	0	33	0	683	0	1	xuanze1.bmp	50pct	50pct	0	2	B.bmp	50pct	50pct	1649
011318	19:40:52	1	1	4.0.10.0	2	2	fenpeiblock1	fangantrial1	500	0	0	0	0	0	Ctrl+'Q'	1	0	0	1	xuanze1.bmp	50pct	50pct	2	6	F.bmp	50pct	50pct	1649
011318	19:49:35	1	1	4.0.10.0	2	1	fenpeiblock1	fangantrial1	500	0	0	0	0	0	33	0	507	0	1	xuanze1.bmp	50pct	50pct	0	5	E.bmp	50pct	50pct	1649	0	0	0	0	0
011318	19:49:35	1	1	4.0.10.0	2	2	fenpeiblock1	fangantrial1	500	0	0	0	0	0	33	0	691	0	1	xuanze1.bmp	50pct	50pct	62	2	B.bmp	50pct	50pct	1649	0	0	0	0	0
011318	19:49:35	1	1	4.0.10.0	2	3	fenpeiblock1	fangantrial1	500	0	0	0	0	0	36	0	378	0	1	xuanze1.bmp	50pct	50pct	0	1	A.bmp	50pct	50pct	1649	0	0	0	0	0
011318	19:49:35	1	1	4.0.10.0	2	4	fenpeiblock1	fangantrial1	500	0	0	0	0	0	36	0	15	0	1	xuanze1.bmp	50pct	50pct	0	4	D.bmp	50pct	50pct	1649	0	0	0	0	0
011318	19:49:35	1	1	4.0.10.0	2	5	fenpeiblock1	fangantrial1	500	0	0	0	0	0	36	0	67	0	1	xuanze1.bmp	50pct	50pct	0	6	F.bmp	50pct	50pct	1649	0	0	0	0	0
011318	19:49:35	1	1	4.0.10.0	2	6	fenpeiblock1	fangantrial1	500	0	0	0	0	0	36	0	130	0	1	xuanze1.bmp	50pct	50pct	0	3	C.bmp	50pct	50pct	1649	0	0	0	0	0
011318	19:49:35	1	1	4.0.10.0	3	1	fangantrial2	fangantrial2	500	0	0	0	0	0	Ctrl+'Q'	1	12541	0	4	D.bmp	50pct	50pct	0	1	假如你有五个筹码，每个价值￥20	75	50	1649	1	请你选择将多少筹码投入方案A，其余筹码将投入方案B	80	50	1649
011318	19:50:38	1	1	4.0.10.0	2	1	fenpeiblock1	fangantrial1	500	0	0	0	0	0	36	0	347	0	1	xuanze1.bmp	50pct	50pct	0	1	A.bmp	50pct	50pct	1649	0	0	0	0	0
011318	19:50:38	1	1	4.0.10.0	2	2	fenpeiblock1	fangantrial1	500	0	0	0	0	0	36	0	198	0	1	xuanze1.bmp	50pct	50pct	0	3	C.bmp	50pct	50pct	1649	0	0	0	0	0
011318	19:50:38	1	1	4.0.10.0	2	3	fenpeiblock1	fangantrial1	500	0	0	0	0	0	36	0	232	0	1	xuanze1.bmp	50pct	50pct	0	5	E.bmp	50pct	50pct	1649	0	0	0	0	0
011318	19:50:38	1	1	4.0.10.0	2	4	fenpeiblock1	fangantrial1	500	0	0	0	0	0	36	0	100	0	1	xuanze1.bmp	50pct	50pct	0	2	B.bmp	50pct	50pct	1649	0	0	0	0	0
011318	19:50:38	1	1	4.0.10.0	2	5	fenpeiblock1	fangantrial1	500	0	0	0	0	0	36	0	229	0	1	xuanze1.bmp	50pct	50pct	0	4	D.bmp	50pct	50pct	1649	0	0	0	0	0
011318	19:50:38	1	1	4.0.10.0	2	6	fenpeiblock1	fangantrial1	500	0	0	0	0	0	36	0	291	0	1	xuanze1.bmp	50pct	50pct	0	6	F.bmp	50pct	50pct	1649	0	0	0	0	0
011318	19:50:38	1	1	4.0.10.0	3	1	fangantrial2	fangantrial2	500	0	0	0	0	0	Ctrl+'Q'	1	4252	0	2	B.bmp	50pct	50pct	0	1	假如你有五个筹码，每个价值￥20	65	50	1649	1	请你选择将多少筹码投入方案A，其余筹码将投入方案B	70	50	1649
011318	19:56:58	1	1	4.0.10.0	2	1	fenpeiblock1	fangantrial1	500	0	0	0	0	0	33	0	1196	0	1	xuanze1.bmp	50pct	50pct	0	3	C.bmp	50pct	50pct	1649	0	0	0	0	0
011318	19:56:58	1	1	4.0.10.0	2	2	fenpeiblock1	fangantrial1	500	0	0	0	0	0	33	0	223	0	1	xuanze1.bmp	50pct	50pct	0	1	A.bmp	50pct	50pct	1649	0	0	0	0	0
011318	19:56:58	1	1	4.0.10.0	2	3	fenpeiblock1	fangantrial1	500	0	0	0	0	0	33	0	139	0	1	xuanze1.bmp	50pct	50pct	0	2	B.bmp	50pct	50pct	1649	0	0	0	0	0
011318	19:56:58	1	1	4.0.10.0	2	4	fenpeiblock1	fangantrial1	500	0	0	0	0	0	33	0	20	0	1	xuanze1.bmp	50pct	50pct	0	4	D.bmp	50pct	50pct	1649	0	0	0	0	0
011318	19:56:58	1	1	4.0.10.0	2	5	fenpeiblock1	fangantrial1	500	0	0	0	0	0	33	0	502	0	1	xuanze1.bmp	50pct	50pct	0	5	E.bmp	50pct	50pct	1649	0	0	0	0	0
011318	19:56:58	1	1	4.0.10.0	2	6	fenpeiblock1	fangantrial1	500	0	0	0	0	0	33	0	4827	0	1	xuanze1.bmp	50pct	50pct	0	6	F.bmp	50pct	50pct	1649	0	0	0	0	0
011318	19:56:58	1	1	4.0.10.0	3	1	fangantrial2	fangantrial2	500	0	0	0	0	0	2	0	2448	0	5	E.bmp	50pct	50pct	0	1	假如你有五个筹码，每个价值￥20	65	50	1649	1	请你选择将多少筹码投入方案A，其余筹码将投入方案B	70	50	1649
011318	19:56:58	1	1	4.0.10.0	3	2	fangantrial2	fangantrial2	500	0	0	0	0	0	3	0	5996	0	6	F.bmp	50pct	50pct	0	1	假如你有五个筹码，每个价值￥20	65	50	1649	1	请你选择将多少筹码投入方案A，其余筹码将投入方案B	70	50	1649
011318	19:56:58	1	1	4.0.10.0	3	3	fangantrial2	fangantrial2	500	0	0	0	0	0	2	0	3582	0	1	A.bmp	50pct	50pct	0	1	假如你有五个筹码，每个价值￥20	65	50	1649	1	请你选择将多少筹码投入方案A，其余筹码将投入方案B	70	50	1649
011318	19:56:58	1	1	4.0.10.0	3	4	fangantrial2	fangantrial2	500	0	0	0	0	0	Ctrl+'Q'	1	1240	0	2	B.bmp	50pct	50pct	0	1	假如你有五个筹码，每个价值￥20	65	50	1649	1	请你选择将多少筹码投入方案A，其余筹码将投入方案B	70	50	1649
